# extract.py -o test/CO2-C12 -i 1 -m CO2 -x 1597,1603 -X nm ../../../hitran-master/hitran-master/par/02_hit12.par
#
# molecule: CO2
# temperature:   296.00 K
# pressure:     1013.25 mb
# number of lines:                        366
# min, max line strength:            1.03e-30     1.74e-23
# format: vSEan
# min, max airbroad.  widths:           0.059        0.093
# min, max selfbroad. widths:           0.063        0.125
# min, max temp. exponent:              0.660        0.830
#   position    strength      energy airWidth    Tdep
#       cm-1   cm-1/cm-2        cm-1     cm-1        
 6238.341559   2.434e-30  2671.22530  0.06790  0.7500
 6238.486384   1.248e-28  1449.05090  0.07900  0.6900
 6238.492873   1.314e-30  2628.47390  0.06630  0.7100
 6238.516562   6.870e-30  3388.96340  0.06910  0.7500
 6238.573060   4.779e-29  3073.12740  0.06240  0.6700
 6238.674537   1.127e-30  3861.84940  0.07360  0.7000
 6238.696760   1.081e-30  1774.40800  0.06890  0.7600
 6238.725502   1.055e-30  3949.84940  0.06930  0.7500
 6238.777296   1.720e-23    81.94010  0.07660  0.7000
 6238.825647   2.809e-30  2523.02170  0.06180  0.6600
 6238.857136   3.245e-30  3216.43970  0.06420  0.6800
 6238.916510   7.514e-30  3364.35670  0.06930  0.7500
 6238.938378   2.651e-30  2685.58910  0.06820  0.7600
 6238.961669   6.634e-30  1363.33080  0.08330  0.7200
 6239.101320   2.699e-29  3196.99980  0.06200  0.6700
 6239.201659   4.002e-29  1441.53060  0.06800  0.7500
 6239.403720   1.085e-27  1244.22050  0.06660  0.7200
 6239.452126   1.666e-28  2907.11130  0.06520  0.6900
 6239.453649   5.048e-30  2255.56670  0.06750  0.7400
 6239.495472   2.427e-29  1559.44930  0.06990  0.7400
 6239.517867   3.876e-29  1475.42300  0.06790  0.7500
 6239.577882   1.039e-30  1748.57800  0.06900  0.7600
 6239.599619   1.500e-29  3323.96020  0.06160  0.6700
 6239.669926   3.108e-29   672.06760  0.08790  0.7700
 6239.708390   1.706e-27  1276.44750  0.06820  0.7600
 6239.745468   8.434e-30  1370.38040  0.08220  0.7100
 6239.745758   1.511e-27  1308.67160  0.06810  0.7600
 6239.761968   1.940e-30  2740.67260  0.06770  0.7500
 6239.771626   1.095e-30  3773.36180  0.05860  0.6700
 6239.840509   2.848e-30  3913.26760  0.06660  0.7200
 6239.907276   1.808e-30  2540.15620  0.06660  0.7200
 6240.013081   1.663e-28  1470.11880  0.07700  0.6900
 6240.067766   8.213e-30  3454.00610  0.06120  0.6700
 6240.100850   3.345e-28  2527.97360  0.07240  0.7100
 6240.104478   1.739e-23   106.12970  0.07500  0.6700
 6240.266817   1.919e-30  2649.65600  0.06140  0.6600
 6240.282669   3.048e-29  3254.12230  0.06810  0.7600
 6240.388768   3.075e-30  2625.52320  0.06840  0.7600
 6240.433534   8.123e-30  3341.63500  0.06940  0.7500
 6240.442701   1.164e-30  3833.21240  0.07520  0.6900
 6240.505584   4.426e-30  3587.13550  0.06080  0.6700
 6240.529268   1.044e-29  1378.21330  0.08110  0.7000
 6240.843582   2.782e-29  1602.37630  0.06940  0.7500
 6240.897527   8.791e-30  3318.64870  0.06960  0.7400
 6240.912912   2.348e-30  3723.34620  0.06040  0.6700
 6240.978906   1.141e-30  3926.06690  0.06390  0.6800
 6241.098453   4.395e-29  1373.54200  0.06810  0.7600
 6241.183992   1.511e-30  2813.23120  0.06750  0.7400
 6241.229406   8.338e-29   679.09900  0.08630  0.7500
 6241.289613   1.226e-30  3862.63570  0.06000  0.6700
 6241.308103   1.221e-27  1373.54200  0.06800  0.7500
 6241.313095   1.263e-29  1386.82910  0.08000  0.6900
 6241.313599   4.300e-29  1405.98470  0.06800  0.7500
 6241.322985   1.410e-27  1339.65910  0.06800  0.7600
 6241.332395   2.439e-30  2454.95170  0.06690  0.7200
 6241.350461   1.376e-27  1157.77400  0.06680  0.7200
 6241.371599   6.335e-30  2181.26900  0.06770  0.7500
 6241.402828   1.709e-23   133.43930  0.07380  0.6800
 6241.537577   2.080e-28  1494.30710  0.07510  0.6900
 6241.710106   1.297e-30  2779.36870  0.06100  0.6600
 6241.852308   3.475e-30  2568.57250  0.06860  0.7600
 6241.956090   3.546e-28  2496.23730  0.07360  0.7000
 6242.096891   1.497e-29  1396.22810  0.07900  0.6900
 6242.107195   4.226e-30  3826.96610  0.06680  0.7200
 6242.119109   2.653e-28  2808.24800  0.06560  0.7000
 6242.175837   3.073e-29  1648.42100  0.06910  0.7500
 6242.186143   1.168e-30  3807.67040  0.07710  0.6900
 6242.326512   9.413e-30  3297.40650  0.06990  0.7400
 6242.443942   2.292e-30  3622.16410  0.05900  0.6700
 6242.608702   1.152e-30  2888.89970  0.06730  0.7300
 6242.672190   1.636e-23   163.86840  0.07270  0.6900
 6242.765381   3.988e-29  3189.30100  0.06820  0.7600
 6242.767687   3.226e-30  2372.86130  0.06710  0.7300
 6242.785593   1.665e-28   689.25530  0.08440  0.7300
 6242.848941   1.008e-29  3276.03590  0.07020  0.7400
 6242.870976   9.663e-28  1441.53060  0.06780  0.7500
 6242.880721   1.742e-29  1406.41030  0.07800  0.6900
 6242.936572   1.142e-27  1405.98470  0.06790  0.7500
 6242.981375   4.695e-29  1308.67160  0.06820  0.7600
 6243.051542   2.464e-28  1521.61540  0.07350  0.7000
 6243.104100   4.647e-29  1339.65910  0.06820  0.7600
 6243.277914   7.781e-30  2110.09010  0.06790  0.7500
 6243.280978   1.707e-27  1074.43050  0.06710  0.7300
 6243.327856   3.821e-30  2514.73730  0.06880  0.7600
 6243.493852   3.277e-29  1697.58250  0.06890  0.7600
 6243.664471   1.995e-29  1417.37550  0.07700  0.6900
 6243.721708   1.904e-30  3816.29350  0.06430  0.6800
 6243.766247   3.661e-28  2467.59570  0.07520  0.6900
 6243.904721   1.133e-30  3785.22360  0.07910  0.6900
 6243.912398   1.529e-23   197.41660  0.07200  0.7000
 6244.195356   1.068e-29  3256.27860  0.07050  0.7300
 6244.212619   4.185e-30  2293.88670  0.06730  0.7400
 6244.344045   2.803e-28   702.53630  0.08220  0.7100
 6244.348808   6.167e-30  3743.76220  0.06710  0.7300
 6244.434890   7.485e-28  1512.63650  0.06760  0.7400
 6244.448279   2.251e-29  1429.12370  0.07600  0.6900
 6244.546531   9.070e-28  1475.42300  0.06770  0.7500
 6244.564037   2.786e-28  1552.04330  0.07230  0.7100
 6244.766793   4.130e-28  2712.47950  0.06590  0.7000
 6244.770624   1.131e-29  3236.51930  0.07090  0.7300
 6244.797066   3.382e-29  1749.86000  0.06870  0.7600
 6244.814314   4.082e-30  2464.01860  0.06910  0.7500
 6244.845072   4.874e-29  1246.92050  0.06840  0.7600
 6244.872551   4.883e-29  1276.44750  0.06830  0.7600
 6245.108333   4.722e-30  3474.02860  0.05930  0.6700
 6245.123271   1.397e-23   234.08340  0.07090  0.7100
 6245.170548   9.349e-30  2042.03120  0.06800  0.7500
 6245.198306   2.070e-27   994.19130  0.06730  0.7300
 6245.205111   5.127e-29  3127.59470  0.06840  0.7600
 6245.231936   2.507e-29  1441.65470  0.07510  0.6900
 6245.254594   1.159e-30  3920.69460  0.06800  0.7500
 6245.405453   1.440e-30  3875.32280  0.06410  0.6800
 6245.560318   3.671e-28  2442.04910  0.07710  0.6900
 6245.598312   1.057e-30  3765.87230  0.08110  0.7000
 6245.666677   5.318e-30  2218.02930  0.06760  0.7400
 6245.899330   4.201e-28   718.94190  0.08000  0.6900
 6245.998700   5.680e-28  1586.85820  0.06740  0.7400
 6246.015701   2.756e-29  1454.96860  0.07430  0.6900
 6246.039938   1.186e-29  3218.25200  0.07140  0.7200
 6246.071030   3.023e-28  1585.59050  0.07130  0.7200
 6246.085883   3.385e-29  1805.25230  0.06840  0.7600
 6246.151431   7.063e-28  1547.97300  0.06750  0.7400
 6246.304618   1.250e-23   273.86800  0.07020  0.7500
 6246.310637   4.231e-30  2416.41700  0.06940  0.7500
 6246.432884   3.128e-30  3709.61180  0.06470  0.6800
 6246.580058   8.846e-30  3663.65770  0.06730  0.7300
 6246.635835   4.984e-29  1216.35100  0.06850  0.7600
 6246.662458   1.241e-29  3200.09960  0.07180  0.7200
 6246.694929   4.909e-29  1188.28970  0.06860  0.7600
 6246.799205   2.996e-29  1469.06560  0.07350  0.7000
 6247.051346   1.098e-29  1977.09380  0.06820  0.7600
 6247.098526   2.451e-27   917.05730  0.06750  0.7400
 6247.129363   6.619e-30  2145.29030  0.06780  0.7500
 6247.290665   1.310e-30  3889.47680  0.06810  0.7600
 6247.319319   3.560e-28  2419.59810  0.07910  0.6900
 6247.358588   3.291e-29  1863.75850  0.06830  0.7600
 6247.387565   6.313e-28  2619.80760  0.06620  0.7100
 6247.456238   1.096e-23   316.76990  0.06960  0.7000
 6247.458489   5.775e-28   738.47170  0.07800  0.6900
 6247.564798   4.226e-28  1664.19460  0.06720  0.7300
 6247.572900   3.160e-28  1622.25620  0.07050  0.7300
 6247.582908   3.220e-29  1483.94490  0.07290  0.7000
 6247.603057   6.475e-29  3069.00440  0.06860  0.7600
 6247.644466   1.531e-30  3854.32080  0.06820  0.7600
 6247.752771   5.397e-28  1623.63350  0.06730  0.7300
 6247.763758   9.569e-30  3328.95780  0.05970  0.6600
 6247.815832   4.245e-30  2371.93360  0.06980  0.7400
 6247.860135   1.288e-29  3183.32710  0.07240  0.7100
 6247.950941   2.389e-30  3766.85060  0.06450  0.6800
 6248.116044   1.194e-30  3009.39450  0.06520  0.6900
 6248.366190   3.429e-29  1499.60730  0.07230  0.7100
 6248.388377   4.932e-29  1159.37020  0.06870  0.7600
 6248.524334   1.331e-29  3166.77730  0.07300  0.7000
 6248.529203   4.789e-29  1132.78030  0.06880  0.7600
 6248.577920   9.416e-24   362.78830  0.06930  0.8300
 6248.600193   8.063e-30  2075.67110  0.06800  0.7500
 6248.618276   3.112e-29  1925.37740  0.06820  0.7600
 6248.784962   1.247e-29  3586.65330  0.06750  0.7400
 6248.917314   1.259e-29  1915.27870  0.06830  0.7600
 6248.987573   2.834e-27   843.03010  0.06770  0.7500
 6249.011710   7.413e-28   761.12550  0.07600  0.6900
 6249.044236   3.320e-28  2400.24320  0.08110  0.7000
 6249.070249   3.193e-28  1662.04020  0.06980  0.7400
 6249.115289   5.057e-30  3606.02370  0.06510  0.6900
 6249.131094   3.082e-28  1744.64440  0.06690  0.7300
 6249.149818   3.613e-29  1516.05210  0.07180  0.7200
 6249.328972   4.113e-30  2330.56910  0.07050  0.7300
 6249.349890   4.048e-28  1702.40310  0.06710  0.7300
 6249.655838   1.363e-29  3151.50490  0.07360  0.7000
 6249.669441   7.940e-24   411.92250  0.06880  0.8100
 6249.862434   2.865e-29  1990.10800  0.06800  0.7500
 6249.932794   3.776e-29  1533.27970  0.07130  0.7200
 6249.956895   8.030e-29  3013.53150  0.06880  0.7600
 6249.978701   9.485e-28  2530.23390  0.06660  0.7200
 6249.997669   1.987e-30  3791.06200  0.06830  0.7600
 6250.078705   9.606e-30  2009.17250  0.06810  0.7600
 6250.130161   4.724e-29  1105.50660  0.06890  0.7600
 6250.223207   1.654e-30  2910.51980  0.06560  0.7000
 6250.347864   4.516e-29  1080.39310  0.06900  0.7600
 6250.356151   1.391e-29  3136.55300  0.07440  0.6900
 6250.409195   1.908e-29  3186.95410  0.06010  0.6600
 6250.472366   3.900e-30  3661.47710  0.06490  0.6900
 6250.562899   3.125e-28  1704.94190  0.06940  0.7500
 6250.570540   8.987e-28   786.90280  0.07430  0.6900
 6250.702529   2.206e-28  1828.20620  0.06670  0.7200
 6250.716343   3.908e-29  1551.28960  0.07080  0.7300
 6250.730574   6.572e-24   464.17170  0.06810  0.8300
 6250.733410   2.947e-28  2383.98440  0.08330  0.7200
 6250.770287   1.410e-29  1856.58700  0.06850  0.7600
 6250.849191   3.835e-30  2292.32350  0.07130  0.7200
 6250.860853   3.196e-27   772.11070  0.06800  0.7500
 6250.942406   2.982e-28  1784.28060  0.06680  0.7200
 6250.966797   1.729e-29  3512.75070  0.06770  0.7500
 6251.091544   2.571e-29  2057.94870  0.06790  0.7500
 6251.426943   1.406e-29  3122.78560  0.07520  0.6900
 6251.498908   4.016e-29  1570.08200  0.07050  0.7300
 6251.564452   1.119e-29  1945.79580  0.06820  0.7600
 6251.761080   5.342e-24   519.53500  0.06830  0.7500
 6251.768582   8.043e-30  3505.53100  0.06540  0.6900
 6251.846451   2.224e-30  3762.54200  0.06840  0.7600
 6251.861236   4.368e-29  1054.76070  0.06910  0.7500
 6252.050250   2.971e-28  1750.96060  0.06910  0.7500
 6252.123954   1.038e-27   815.80320  0.07290  0.7000
 6252.150942   4.105e-29  1031.12920  0.06930  0.7500
 6252.157817   1.413e-29  3109.42750  0.07610  0.6900
 6252.267460   1.549e-28  1914.87870  0.06640  0.7100
 6252.267989   9.776e-29  2961.17700  0.06900  0.7600
 6252.282387   4.089e-29  1589.65660  0.07010  0.7400
 6252.302354   2.244e-30  2814.74510  0.06590  0.7000
 6252.306843   2.532e-30  3730.91890  0.06850  0.7600
 6252.307237   2.251e-29  2128.89870  0.06770  0.7400
 6252.375690   3.426e-30  2257.19820  0.07230  0.7100
 6252.409800   2.450e-28  2370.82230  0.08540  0.7400
 6252.527784   2.157e-28  1869.26480  0.06650  0.7200
 6252.539819   1.401e-27  2443.76050  0.06680  0.7200
 6252.608897   1.538e-29  1801.01980  0.06870  0.7600
 6252.717755   3.512e-27   704.30050  0.06810  0.7600
 6252.760716   4.266e-24   578.01160  0.06710  0.7400
 6252.967973   6.263e-30  3559.20410  0.06520  0.6900
 6253.043645   3.743e-29  3048.01980  0.06050  0.6600
 6253.057007   1.272e-29  1885.54220  0.06840  0.7600
 6253.064416   4.138e-29  1610.01380  0.06980  0.7400
 6253.126827   2.354e-29  3441.95120  0.06800  0.7500
 6253.173357   1.407e-29  3097.17020  0.07710  0.6900
 6253.507463   1.924e-29  2202.95630  0.06740  0.7400
 6253.532951   2.747e-28  1800.09570  0.06880  0.7600
 6253.581613   3.889e-29  1007.13350  0.06940  0.7500
 6253.682764   1.148e-27   847.82630  0.07180  0.7200
 6253.729232   3.347e-24   639.60040  0.06780  0.8300
 6253.790072   1.025e-30  2119.90110  0.08110  0.7000
 6253.840367   1.068e-28  2004.66030  0.06600  0.7100
 6253.847851   4.149e-29  1631.15270  0.06960  0.7400
 6253.907738   2.916e-30  2225.19340  0.07360  0.7000
 6253.929247   1.392e-29  3085.40060  0.07810  0.6900
 6253.938443   3.586e-29   984.98900  0.06960  0.7400
 6254.040710   1.841e-28  2360.75680  0.08720  0.7600
 6254.059326   2.833e-30  3703.76340  0.06860  0.7600
 6254.108267   1.534e-28  1957.35400  0.06620  0.7100
 6254.360842   2.979e-30  2722.07230  0.06620  0.7100
 6254.389420   1.258e-29  3408.13550  0.06580  0.7000
 6254.432897   1.633e-29  1748.57800  0.06890  0.7600
 6254.535897   1.168e-28  2911.94240  0.06930  0.7500
 6254.555961   1.410e-29  1828.41260  0.06860  0.7600
 6254.560273   3.756e-27   639.60040  0.06820  0.7600
 6254.577418   3.151e-30  3673.89330  0.06870  0.7600
 6254.629188   4.140e-29  1653.07410  0.06940  0.7500
 6254.666371   2.581e-24   704.30050  0.06800  0.7500
 6254.684856   1.281e-30  2128.38770  0.08000  0.6900
 6254.692039   1.607e-29  2280.12010  0.06720  0.7300
 6254.894995   1.362e-29  3074.65840  0.07910  0.6900
 6255.010722   2.473e-28  1852.34660  0.06860  0.7600
 6255.068838   2.035e-27  2360.38840  0.06710  0.7300
 6255.240135   1.222e-27   882.97140  0.07080  0.7300
 6255.265235   3.151e-29  3374.25510  0.06810  0.7600
 6255.291303   3.322e-29   962.62570  0.06990  0.7400
 6255.342710   1.471e-30  2137.90090  0.07900  0.6900
 6255.412626   4.091e-29  1675.77720  0.06920  0.7500
 6255.418870   7.233e-29  2097.54980  0.06570  0.7000
 6255.442254   9.894e-30  3460.03370  0.06560  0.7000
 6255.444673   2.345e-30  2196.30930  0.07510  0.6900
 6255.571876   1.957e-24   772.11070  0.06790  0.7500
 6255.646105   1.145e-28  2353.78860  0.08850  0.7800
 6255.665950   7.225e-29  2912.15720  0.06090  0.6600
 6255.670364   1.321e-29  3064.47340  0.08010  0.6900
 6255.676664   1.072e-28  2048.54690  0.06590  0.7000
 6255.710374   2.999e-29   941.97360  0.07020  0.7400
 6255.862084   1.312e-29  2360.38840  0.06700  0.7300
 6256.060927   1.524e-29  1774.40800  0.06880  0.7600
 6256.193083   4.029e-29  1699.26250  0.06910  0.7500
 6256.240898   3.520e-30  3648.11250  0.06880  0.7600
 6256.242336   1.686e-29  1699.26250  0.06920  0.7500
 6256.279570   1.789e-30  2147.90620  0.07800  0.6900
 6256.390473   3.312e-27   578.01160  0.06840  0.7600
 6256.401124   3.870e-30  2632.50220  0.06660  0.7200
 6256.445483   1.459e-24   843.03010  0.06770  0.7400
 6256.483564   2.172e-28  1907.71230  0.06840  0.7600
 6256.591778   1.267e-29  3055.25100  0.08110  0.7000
 6256.760435   1.368e-28  2865.82860  0.06960  0.7400
 6256.800359   1.255e-27   921.23810  0.07010  0.7400
 6256.822619   3.801e-30  3619.98560  0.06890  0.7600
 6256.893301   1.963e-30  2159.03050  0.07700  0.6900
 6256.976600   3.928e-29  1723.52920  0.06890  0.7600
 6256.979620   1.937e-29  3313.83910  0.06610  0.7100
 6256.985899   1.762e-30  2170.54690  0.07700  0.6900
 6256.990037   4.811e-29  2193.54520  0.06540  0.7000
 6256.990316   2.711e-29   921.23810  0.07050  0.7300
 6257.017063   1.048e-29  2443.76050  0.06680  0.7200
 6257.207506   3.895e-29  2349.91700  0.09270  0.7800
 6257.238688   7.359e-29  2142.84180  0.06550  0.7000
 6257.286929   1.070e-24   917.05730  0.06740  0.7400
 6257.378390   4.142e-29  3309.66430  0.06820  0.7600
 6257.381098   1.200e-29  3046.64580  0.08220  0.7100
 6257.466736   2.390e-29   902.08370  0.07090  0.7300
 6257.565173   2.907e-27  2280.12010  0.06730  0.7300
 6257.571534   1.601e-29  1723.52920  0.06910  0.7500
 6257.761000   3.820e-29  1748.57800  0.06880  0.7600
 6257.834772   1.111e-30  3787.72410  0.06030  0.6600
 6257.878024   2.342e-30  2170.54690  0.07600  0.6900
 6257.890157   1.538e-29  3363.96780  0.06590  0.7000
 6257.952789   1.862e-28  1966.19230  0.06820  0.7600
 6258.036348   1.687e-29  1653.07410  0.06960  0.7400
 6258.095505   7.629e-25   994.19130  0.06720  0.7300
 6258.156131   8.190e-30  2530.23390  0.06640  0.7100
 6258.205079   3.942e-27   519.53500  0.06860  0.7600
 6258.263638   1.120e-29  3038.94820  0.08330  0.7200
 6258.272099   1.372e-28  2779.36870  0.06130  0.6600
 6258.359440   1.249e-27   962.62570  0.06960  0.7400
 6258.388091   4.289e-30  3595.59030  0.06900  0.7600
 6258.415220   4.918e-30  2546.03640  0.06680  0.7200
 6258.441854   2.467e-30  2183.28980  0.07510  0.6900
 6258.530889   1.216e-30  2147.90620  0.07900  0.6900
 6258.539653   3.676e-29  1774.40800  0.06870  0.7600
 6258.568844   3.144e-29  2292.64530  0.06500  0.6900
 6258.678660   2.102e-29   882.97140  0.07140  0.7200
 6258.791472   4.969e-29  2240.23750  0.06520  0.6900
 6258.871653   5.405e-25  1074.43050  0.06700  0.7300
 6258.939907   1.570e-28  2822.83690  0.07020  0.7400
 6259.012838   4.700e-30  3569.19750  0.06910  0.7500
 6259.061388   1.027e-29  3031.91820  0.08440  0.7300
 6259.087435   1.633e-29  1675.77720  0.06940  0.7500
 6259.207530   1.804e-29   865.31990  0.07180  0.7200
 6259.283554   6.266e-30  2619.80760  0.06610  0.7100
 6259.321200   3.533e-29  1801.01980  0.06860  0.7600
 6259.416169   1.560e-28  2027.78560  0.06810  0.7600
 6259.467702   5.348e-29  3248.17940  0.06840  0.7600
 6259.479747   2.907e-30  2196.30930  0.07430  0.6900
 6259.517500   7.802e-29  2349.91700  0.08930  0.7800
 6259.536208   2.932e-29  3222.64330  0.06640  0.7100
 6259.614875   3.767e-25  1157.77400  0.06680  0.7200
 6259.815342   1.634e-29  1610.01380  0.07010  0.7400
 6259.910512   9.228e-30  3025.75050  0.08540  0.7400
 6259.924156   1.205e-27  1007.13350  0.06920  0.7500
 6259.988381   2.947e-30  2210.67800  0.07350  0.7000
 6260.007835   3.857e-27   464.17170  0.06880  0.7600
 6260.029033   4.082e-27  2202.95630  0.06750  0.7400
 6260.104800   3.358e-29  1828.41260  0.06850  0.7600
 6260.152200   2.020e-29  2394.84810  0.06470  0.6900
 6260.308496   2.351e-29  3271.00810  0.06620  0.7100
 6260.324845   2.582e-25  1244.22050  0.06640  0.7100
 6260.334321   3.298e-29  2340.73190  0.06480  0.6900
 6260.356338   1.538e-29   847.82630  0.07240  0.7100
 6260.394380   4.696e-30  2712.47950  0.06580  0.7000
 6260.411811   6.109e-30  2462.67580  0.06710  0.7300
 6260.499009   5.125e-30  3546.19800  0.06930  0.7500
 6260.608300   1.614e-29  1631.15270  0.06980  0.7400
 6260.623585   2.147e-30  3650.18730  0.06070  0.6600
 6260.711178   8.067e-30  3020.29100  0.08640  0.7500
 6260.869397   2.563e-28  2649.65600  0.06170  0.6600
 6260.876436   1.277e-28  2092.49170  0.06800  0.7500
 6260.877875   3.192e-29  1856.58700  0.06840  0.7600
 6260.932755   1.278e-29   831.68290  0.07300  0.7000
 6261.001307   1.742e-25  1333.76790  0.06610  0.7100
 6261.009154   1.532e-28  2353.78860  0.08790  0.7700
 6261.075773   1.764e-28  2782.96750  0.07090  0.7300
 6261.084202   3.448e-30  2225.19340  0.07290  0.7000
 6261.167495   5.563e-30  3521.52980  0.06940  0.7500
 6261.485815   1.136e-30  3127.59470  0.06830  0.7600
 6261.489954   1.130e-27  1054.76070  0.06890  0.7600
 6261.490145   3.448e-30  2808.24800  0.06550  0.7000
 6261.532283   6.779e-29  3189.80180  0.06860  0.7600
 6261.532348   6.796e-30  3015.65770  0.08720  0.7600
 6261.532900   3.368e-30  2241.19460  0.07230  0.7100
 6261.579371   1.526e-29  1570.08200  0.07090  0.7300
 6261.642841   1.156e-25  1426.41530  0.06580  0.7000
 6261.662487   2.996e-29  1885.54220  0.06830  0.7600
 6261.735876   1.275e-29  2500.15230  0.06420  0.6800
