# extract.py -o test/testH2O -m H2O -x 1580,1620 -X nm ../../../hitran-master/hitran-master/par/01_hit12.par
#
# molecule: H2O
# temperature:   296.00 K
# pressure:     1013.25 mb
# number of lines:                        748
# min, max line strength:               1e-29     3.95e-25
# format: vSEan
# min, max airbroad.  widths:           0.006        0.105
# min, max selfbroad. widths:           0.132        0.533
# min, max temp. exponent:              0.240        1.010
#   position    strength      energy airWidth    Tdep
#       cm-1   cm-1/cm-2        cm-1     cm-1        
 6172.956751   1.778e-29  2733.96260  0.03750  0.6200
 6172.962378   5.334e-29  2733.96260  0.03790  0.6200
 6173.614673   5.459e-28  1821.59680  0.08750  0.5600
 6173.652430   5.244e-27   808.56320  0.08250  0.5300
 6173.965111   5.805e-28   136.33660  0.10300  0.7300
 6174.996135   8.857e-29  2321.90500  0.04460  0.4800
 6175.761558   4.939e-27  1631.38310  0.04950  0.6300
 6175.931118   2.368e-29  1399.42790  0.04000  0.5500
 6175.987580   1.614e-26  1813.22270  0.06660  0.3900
 6176.725331   6.514e-28  2813.52730  0.03170  0.2400
 6176.740779   1.955e-27  2813.51150  0.03290  0.2400
 6176.825993   2.153e-29   133.47580  0.09500  0.7100
 6177.063134   1.845e-27  1631.24520  0.04690  0.5000
 6177.183655   5.374e-29  2904.42800  0.07600  0.5100
 6177.272060   2.517e-25    23.79440  0.10400  0.7100
 6177.396825   2.223e-29  2437.50120  0.04310  0.2400
 6177.471135   1.271e-27  1998.99480  0.06920  0.4800
 6177.690018   3.986e-29  2880.83250  0.05310  0.3600
 6177.859849   7.759e-26   742.07620  0.05210  0.5800
 6177.866499   2.587e-26   742.07300  0.05080  0.6700
 6179.219033   2.486e-28  2739.42770  0.03150  0.3600
 6179.585030   1.481e-29  2490.35400  0.07050  0.4900
 6180.198089   3.649e-28  2161.28590  0.08130  0.6800
 6180.651829   4.116e-29  2927.93990  0.03210  0.2400
 6180.701038   1.456e-29  2551.48220  0.06760  0.3600
 6180.754880   1.212e-29    79.22730  0.09300  0.6900
 6181.010271   1.841e-29  1954.65370  0.03450  0.3900
 6181.091351   6.853e-29  2433.79910  0.04090  0.2400
 6181.147153   2.086e-29  2512.37520  0.04090  0.5100
 6181.234104   1.358e-28  2144.04590  0.04990  0.4800
 6182.005537   1.178e-28  2275.37180  0.04290  0.2400
 6182.023120   4.317e-27   711.79540  0.08720  0.5300
 6182.692592   1.326e-29  2927.07420  0.03360  0.2400
 6183.316733   9.276e-28  2124.95000  0.04110  0.3900
 6183.519299   1.179e-28   325.21570  0.09100  0.7600
 6183.577305   5.442e-29  2586.52880  0.03970  0.2400
 6183.659996   3.523e-28   223.82850  0.09600  0.6900
 6184.153304   3.070e-28  2952.38620  0.01850  0.4100
 6184.683985   9.841e-29  3629.09420  0.03390  0.3800
 6184.764100   1.049e-25    70.09080  0.09900  0.6900
 6184.969331   2.348e-28  1411.64180  0.05100  0.5600
 6184.999790   7.044e-28  1411.61130  0.05270  0.5600
 6185.358660   1.142e-28   136.53760  0.10300  0.7300
 6185.412933   1.209e-29  3472.88010  0.05890  0.3600
 6185.634786   1.720e-28  2705.13920  0.02200  0.4800
 6185.678810   2.747e-26   615.96880  0.05730  0.6900
 6185.681960   1.452e-25   173.36580  0.09950  0.6900
 6185.812650   1.142e-25   782.40980  0.09600  0.6900
 6186.167966   9.067e-28  2952.39180  0.01810  0.4100
 6186.183880   7.141e-27   683.61010  0.07850  0.5900
 6186.655448   3.870e-29  2471.25460  0.03160  0.5100
 6186.739022   5.465e-28  1411.61130  0.06700  0.5700
 6187.144136   1.257e-29  1211.18540  0.06100  0.5100
 6187.198850   5.725e-29  1288.26750  0.03400  0.4800
 6187.210440   1.872e-26  1006.11570  0.06170  0.5600
 6187.636009   2.471e-29  2818.39770  0.06910  0.5600
 6187.737559   3.243e-29    23.75490  0.10140  0.6700
 6188.225380   2.016e-28  1640.50570  0.09910  0.6700
 6188.740030   9.440e-27   683.32400  0.08150  0.5900
 6188.955522   4.021e-28  2740.42040  0.02560  0.3900
 6188.955536   1.207e-27  2740.42040  0.02790  0.3900
 6189.126371   1.285e-29  2471.25490  0.02630  0.5100
 6189.519739   3.384e-29  3624.17920  0.03240  0.3800
 6190.060975   1.427e-28  1922.82900  0.08220  0.5700
 6190.185616   5.820e-29  2705.09620  0.02270  0.4800
 6191.503192   8.540e-29   601.23780  0.08500  0.7000
 6191.564484   6.866e-29   141.56800  0.09870  0.7800
 6191.708723   7.433e-29  2271.71190  0.08070  0.6100
 6191.875943   8.431e-29  3567.17160  0.02050  0.4100
 6192.097389   3.760e-29  3269.53860  0.03590  0.3600
 6192.241580   2.122e-29  2337.46310  0.05690  0.4300
 6192.278074   2.643e-28   445.34620  0.09200  0.6600
 6192.971493   1.659e-27  1524.84730  0.05580  0.3900
 6193.132820   3.752e-26    79.49640  0.09300  0.6900
 6193.423142   1.379e-29  2433.79910  0.06160  0.3900
 6193.534463   2.001e-29  2756.41430  0.04570  0.3600
 6194.034085   1.336e-27  1255.16660  0.07110  0.5700
 6194.364305   1.522e-28   221.23400  0.10000  0.6900
 6194.396935   4.019e-28  1437.96780  0.06350  0.4800
 6194.689085   7.622e-29   141.56800  0.10100  0.7000
 6194.786850   2.364e-26     0.00000  0.09600  0.7100
 6195.151543   2.458e-27  2105.86670  0.05690  0.2400
 6195.444000   2.290e-29   325.88020  0.09100  0.7600
 6195.521468   1.121e-28  2024.15230  0.08310  0.7500
 6195.522811   2.493e-29  3567.17160  0.02350  0.4100
 6195.770466   6.834e-29   224.30420  0.09600  0.6900
 6195.929932   5.828e-29  2705.13920  0.06390  0.5100
 6196.412942   5.170e-28  1631.38310  0.06140  0.5600
 6197.197253   1.559e-29  2690.59380  0.02970  0.5100
 6197.276379   9.850e-29  1813.22270  0.06860  0.3900
 6197.362490   8.165e-28  2144.04590  0.05950  0.4800
 6197.708670   5.175e-27   586.24350  0.06120  0.5700
 6197.803601   1.163e-29  2495.16580  0.08170  0.5600
 6198.097894   3.940e-27  1813.22270  0.06620  0.5800
 6198.131910   3.058e-25   136.76170  0.10300  0.7300
 6198.723464   5.859e-28  3127.86110  0.03120  0.3600
 6198.783506   1.954e-28  3127.80150  0.02940  0.3600
 6198.924739   2.861e-29  3567.25240  0.01920  0.4100
 6199.503614   5.304e-29  1922.90040  0.08820  0.7100
 6199.659488   4.319e-29  1109.80220  0.02970  0.4800
 6199.796800   1.559e-29  2904.67020  0.06320  0.5100
 6199.849183   1.458e-29  3822.24340  0.03420  0.3800
 6199.991871   1.092e-26   134.90160  0.09500  0.7100
 6200.318129   1.043e-29  1290.79860  0.03400  0.4800
 6200.372496   4.608e-29  1204.17470  0.04220  0.4500
 6200.414564   1.537e-29  1204.16920  0.04260  0.4800
 6200.572938   4.177e-27  1774.61540  0.03510  0.2400
 6201.427785   4.183e-27  1411.64180  0.04390  0.5400
 6201.767290   1.598e-26  1411.61130  0.04000  0.5500
 6203.411582   8.040e-29  2275.37180  0.04890  0.3900
 6203.788355   1.332e-29   141.90910  0.09430  0.7100
 6203.920590   1.428e-26   573.97060  0.08080  0.6400
 6203.972508   5.137e-29   446.24490  0.09200  0.6600
 6204.018845   3.320e-27  1327.10960  0.06060  0.3900
 6204.439724   2.580e-29  2915.89430  0.01700  0.3900
 6204.751295   1.270e-28  3072.72580  0.04940  0.5100
 6204.843520   1.472e-26   573.89080  0.08200  0.6400
 6204.974400   1.643e-29   601.96080  0.08500  0.7000
 6205.182411   9.224e-27  1962.50620  0.03450  0.3900
 6205.665104   2.981e-29   221.63170  0.08860  0.6900
 6205.788577   1.396e-29   141.90240  0.10100  0.7000
 6205.841188   2.025e-29  1321.45430  0.00900  0.3900
 6206.081342   2.701e-28  2105.86670  0.05970  0.3900
 6206.299077   1.865e-29  2426.19530  0.04030  0.2400
 6206.540518   5.565e-29  2613.10400  0.03500  0.3900
 6206.571844   1.921e-29  4006.07100  0.02810  0.4100
 6207.341061   1.538e-28  2612.79910  0.03630  0.3900
 6207.491413   3.187e-27  1960.20610  0.03560  0.3900
 6207.622225   1.593e-29  3319.44580  0.01530  0.4100
 6207.695657   7.538e-29  2915.87380  0.01770  0.3900
 6208.831840   6.616e-26   326.62550  0.09100  0.7600
 6208.938190   9.077e-27   581.96210  0.08610  0.5900
 6208.979762   1.358e-28  2813.51150  0.03540  0.3900
 6209.350520   1.896e-25   224.83840  0.09600  0.6900
 6209.960743   1.313e-29  1440.28820  0.05250  0.5100
 6210.053350   5.521e-29   583.98640  0.09800  0.7700
 6210.080135   2.918e-28  2042.75330  0.07030  0.6200
 6210.217053   4.922e-27  2246.88380  0.03330  0.3600
 6210.386007   6.563e-28  1631.38310  0.04950  0.5100
 6210.523578   2.190e-28  1631.24520  0.04760  0.5100
 6210.842446   2.217e-29   204.75590  0.09700  0.8200
 6211.164851   5.568e-29  2318.53980  0.05930  0.5700
 6211.399013   7.158e-29  3244.59940  0.04860  0.3600
 6211.884889   1.762e-29  2129.59910  0.08070  0.7500
 6212.265010   1.969e-26    23.79440  0.10140  0.6700
 6212.615064   4.192e-29  2904.67020  0.07580  0.6500
 6212.989565   1.862e-29  2688.07960  0.04690  0.4800
 6213.035456   5.252e-29  2748.09860  0.04310  0.2400
 6213.544970   4.599e-27   841.36760  0.08750  0.4900
 6213.674581   1.640e-28  3032.68990  0.02550  0.2400
 6213.674926   4.918e-28  3032.68970  0.02590  0.2400
 6213.760342   1.450e-28  1810.58760  0.04430  0.5100
 6213.764990   4.835e-29  1810.58300  0.04120  0.5100
 6214.296754   4.413e-29  2927.07420  0.03830  0.2400
 6214.422411   1.888e-28  1908.01640  0.08700  0.6800
 6214.515840   1.273e-29  2724.16700  0.08610  0.6100
 6215.116240   2.566e-26  1293.63370  0.03400  0.4800
 6215.758444   5.415e-29  1899.00740  0.07600  0.4800
 6215.845072   2.676e-29  2915.87380  0.00900  0.3900
 6216.001195   2.449e-29   282.30700  0.08740  0.6500
 6216.511364   1.881e-28  2972.82810  0.02060  0.3900
 6216.511389   6.271e-29  2972.82810  0.01960  0.3900
 6216.699147   1.449e-27  2660.94410  0.01750  0.4100
 6217.101050   1.472e-25   447.25230  0.09200  0.6600
 6217.117243   1.541e-29  3629.09420  0.03690  0.3600
 6217.179985   1.063e-29  1355.19950  0.05830  0.5600
 6217.239924   1.496e-28   136.33660  0.09200  0.6900
 6217.373632   6.118e-29  2414.72190  0.04630  0.2400
 6217.503950   3.837e-26   142.27850  0.09870  0.7800
 6217.605231   4.962e-28  2660.94480  0.01720  0.4100
 6217.628304   3.655e-28  1360.23500  0.08450  0.6900
 6217.829969   1.801e-29  2105.86670  0.05570  0.2400
 6217.978766   4.307e-28   223.82850  0.08400  0.8000
 6218.230520   4.841e-26   142.27850  0.10100  0.7000
 6218.301816   7.867e-26   222.05280  0.10000  0.6900
 6218.550967   3.672e-29  2612.79910  0.04060  0.3900
 6218.601536   1.032e-29  3940.51830  0.05290  0.3900
 6218.810392   4.964e-29  3058.39770  0.05900  0.5100
 6219.003054   5.536e-27  1216.23110  0.06100  0.5100
 6219.239259   2.543e-29  2225.46880  0.02750  0.5600
 6219.365616   4.995e-29  3465.06860  0.02600  0.3600
 6219.455750   7.451e-29  2533.79170  0.06340  0.2400
 6219.542463   1.500e-28  3464.88620  0.02600  0.3600
 6219.566791   1.007e-29  3465.06860  0.02900  0.3600
 6220.094685   4.720e-26   602.77350  0.08500  0.7000
 6220.421058   1.676e-29  3487.39820  0.05160  0.4800
 6221.000871   3.251e-28   324.04670  0.09200  0.7500
 6221.196340   2.146e-26   480.25890  0.08280  0.6900
 6221.327423   2.683e-27  2414.72190  0.04560  0.3600
 6221.429510   2.158e-26   480.24270  0.08190  0.6900
 6221.511181   1.074e-29   585.19200  0.06070  0.6100
 6221.660259   4.315e-29  2630.19240  0.06950  0.5700
 6222.778071   3.896e-28  2275.37180  0.05490  0.3900
 6222.803357   2.927e-29  3144.57810  0.01410  0.2400
 6223.138650   2.435e-29  1440.28820  0.04460  0.4800
 6223.183780   7.867e-27   701.62040  0.09000  0.5300
 6224.678951   2.547e-29  1033.19450  0.03750  0.6200
 6224.682303   7.644e-29  1033.19400  0.03700  0.6200
 6224.966880   1.751e-26  1114.54930  0.02970  0.4800
 6225.647978   1.000e-29  3144.56810  0.01400  0.2400
 6225.929582   6.446e-29  3244.59940  0.04290  0.3600
 6226.129234   5.568e-28  1875.46130  0.06620  0.5100
 6226.141280   2.513e-26  1216.19450  0.04220  0.4500
 6226.197379   7.592e-27  1216.18970  0.04260  0.4800
 6226.291615   1.197e-27  1216.18970  0.07490  0.6100
 6226.331608   3.455e-29  3360.59890  0.05650  0.3600
 6226.378086   2.483e-28   445.15850  0.09200  0.7100
 6227.188134   8.391e-27  1327.10960  0.00900  0.3900
 6227.354936   1.715e-28  1411.64180  0.06230  0.5700
 6227.645460   3.639e-27   233.02370  0.09080  0.7700
 6227.650013   7.520e-27  1446.12790  0.05250  0.5100
 6227.898949   1.015e-27  2426.19530  0.03200  0.2400
 6228.764421   5.819e-28  1690.66360  0.05590  0.3900
 6228.815264   2.670e-29   136.53760  0.09200  0.6900
 6229.152694   7.959e-29   224.30420  0.08400  0.8000
 6229.715730   4.115e-27  1049.12450  0.06450  0.4100
 6229.984516   1.655e-29  2439.95430  0.07590  0.5700
 6230.018360   6.011e-27  1075.76250  0.04310  0.3900
 6230.140860   6.092e-27  1075.71470  0.04330  0.3900
 6231.495157   1.869e-28  3291.14700  0.01900  0.4100
 6231.687336   5.912e-28  2321.90500  0.03630  0.4800
 6231.904060   6.051e-27   403.54900  0.09500  0.6400
 6231.922488   1.939e-28  2321.81180  0.03720  0.4800
 6232.203670   1.634e-26   469.66360  0.08730  0.6400
 6232.203716   6.338e-29   324.67720  0.08240  0.6700
 6232.239347   1.227e-29  2630.19240  0.06170  0.5600
 6232.249430   1.267e-28   221.23400  0.09500  0.6400
 6232.492890   2.207e-29  3810.93410  0.02310  0.4100
 6232.595537   3.182e-27  1538.14880  0.07120  0.5100
 6233.374582   5.871e-29  2181.08980  0.06150  0.4400
 6233.650300   1.275e-26   576.90470  0.08620  0.5900
 6233.757259   2.890e-29  2251.86230  0.07340  0.6300
 6233.931832   1.906e-28   274.80320  0.09300  0.5300
 6234.053161   1.122e-26   206.30140  0.09700  0.8200
 6234.169344   5.502e-29  3291.14870  0.01280  0.4100
 6234.324600   2.808e-26   586.47920  0.09800  0.7700
 6234.526557   1.518e-29   380.70240  0.08400  0.6900
 6234.584161   1.167e-28  1875.46130  0.04780  0.4800
 6234.605599   6.491e-28   172.88290  0.10000  0.6600
 6234.977215   3.335e-29  2512.28250  0.04260  0.5600
 6235.073675   3.520e-28  1874.97270  0.04640  0.4800
 6235.141265   1.530e-28   881.91400  0.07500  0.7600
 6235.422984   1.057e-27  1843.02880  0.04970  0.4800
 6235.781336   2.145e-29  2983.39530  0.06700  0.3600
 6235.873496   8.241e-29   706.59780  0.07700  0.6800
 6235.933810   3.982e-27  1046.47440  0.06410  0.4100
 6236.036255   9.506e-29   740.99860  0.05090  0.5700
 6236.163233   8.310e-29  2433.79910  0.05160  0.3900
 6236.169186   2.610e-27  1437.96780  0.05800  0.5100
 6236.304213   7.009e-29  2054.36820  0.04540  0.5100
 6236.516911   2.588e-29  3472.88010  0.05890  0.3600
 6236.820500   1.503e-29  1038.76460  0.03700  0.6200
 6237.296376   1.578e-28  3347.78200  0.02440  0.3600
 6237.298012   5.258e-29  3347.78030  0.02450  0.3600
 6238.058710   2.921e-26   402.33100  0.07730  0.7300
 6238.091990   2.969e-26   402.32920  0.07700  0.7300
 6238.237617   4.675e-29  2660.94410  0.04070  0.4100
 6238.343898   1.709e-28    94.78860  0.10500  0.7500
 6238.442514   3.312e-29  3824.99630  0.02440  0.3800
 6238.756953   3.783e-29  1279.79790  0.09000  0.6500
 6238.797112   1.609e-27  1724.70470  0.06860  0.5100
 6238.922740   1.107e-29  3824.49710  0.02350  0.3800
 6239.003646   4.661e-29  2054.36820  0.03850  0.4800
 6239.025738   1.398e-28  2054.34470  0.04390  0.4800
 6239.047178   1.307e-29  2764.69730  0.07730  0.5700
 6239.089236   3.389e-27  2414.72190  0.04070  0.2400
 6239.254826   1.904e-28   325.21570  0.07500  0.3600
 6239.263780   3.990e-28   398.36050  0.10100  0.8200
 6239.285491   1.157e-29  2915.89330  0.05390  0.4800
 6239.814464   4.793e-29   445.79340  0.09200  0.7100
 6239.880340   1.585e-26   285.41860  0.08740  0.6500
 6240.253087   1.262e-29  3306.29540  0.03650  0.5700
 6240.366694   7.113e-28  2533.79170  0.05740  0.2400
 6240.954064   5.963e-28  2918.24370  0.03130  0.3600
 6241.185996   2.805e-29  3443.18970  0.03720  0.3600
 6241.675920   2.542e-25   224.83840  0.08400  0.8000
 6241.799840   9.077e-26   136.76170  0.09200  0.6900
 6241.928120   5.983e-27  1360.23500  0.05830  0.5600
 6242.223571   2.131e-29  1688.28610  0.04820  0.4800
 6242.840968   3.417e-29  3266.76390  0.02020  0.2400
 6242.841807   1.025e-28  3266.76290  0.02050  0.2400
 6242.878853   2.646e-29  1075.90930  0.08040  0.5600
 6243.797579   2.322e-29   221.62080  0.09500  0.6400
 6243.885127   1.093e-29  3391.12700  0.01200  0.3600
 6243.920461   3.191e-28   550.45080  0.07900  0.6800
 6244.083837   2.417e-29  2414.72190  0.04620  0.3600
 6244.284750   7.262e-27   889.57590  0.07470  0.4500
 6244.424443   1.378e-29  3940.58450  0.01820  0.4100
 6244.718750   1.674e-25   325.34790  0.09200  0.7500
 6245.103810   5.603e-29  2572.13940  0.08410  0.6100
 6245.356910   1.900e-26   467.51460  0.08840  0.6400
 6246.047140   6.721e-29  1684.43910  0.05600  0.4800
 6246.193647   3.727e-29   275.13050  0.09300  0.5300
 6246.427499   1.129e-28   298.62010  0.08800  0.7300
 6246.577208   9.521e-29  2522.26070  0.03490  0.4800
 6246.870640   1.109e-26   916.12400  0.05020  0.4100
 6246.964600   1.270e-28   173.11010  0.10000  0.6600
 6247.115490   1.122e-26   916.02910  0.05060  0.4100
 6247.243349   1.845e-29   742.52920  0.05010  0.5700
 6247.624926   2.954e-29   883.69130  0.06100  0.5700
 6247.783402   1.275e-29  4087.97750  0.01170  0.2400
 6247.867858   2.186e-27  1631.38310  0.07210  0.5600
 6247.949578   5.507e-28   324.04670  0.08000  0.3600
 6248.044829   3.781e-28  1411.61130  0.07770  0.5700
 6248.094906   1.028e-28  3127.86110  0.03940  0.2400
 6248.165540   4.265e-29   505.72870  0.08810  0.6200
 6248.605613   2.498e-29  2904.42800  0.03400  0.4800
 6248.658749   1.590e-29   708.04720  0.06780  0.6100
 6250.237798   3.988e-27   285.21930  0.09120  0.7200
 6250.423440   1.438e-26  1045.05830  0.03750  0.6200
 6250.428410   4.318e-26  1045.05770  0.03700  0.6200
 6250.504577   3.536e-29   325.88020  0.07500  0.3600
 6250.723379   3.344e-29    94.97410  0.09570  0.6900
 6250.861198   1.087e-29  3567.17160  0.02350  0.4100
 6251.338092   7.798e-29   398.87930  0.10100  0.8200
 6251.970522   1.343e-28  2000.86290  0.08570  0.6200
 6252.094002   1.037e-28  2495.16580  0.04680  0.5600
 6252.229448   7.207e-29   444.84620  0.07600  0.5200
 6252.659270   2.610e-26   374.41000  0.08860  0.6900
 6252.859680   7.734e-29   541.18010  0.10400  0.6200
 6253.228945   2.779e-29  2670.78960  0.08050  0.5700
 6253.257057   2.719e-29  2705.13920  0.02970  0.4800
 6253.388173   5.058e-28    78.98860  0.09600  0.6900
 6253.442887   2.449e-28  1774.61540  0.05330  0.2400
 6253.824657   8.844e-29  1813.22270  0.06770  0.4800
 6254.064679   6.898e-28  1059.64660  0.04730  0.6100
 6254.382565   1.085e-26  1446.12790  0.04460  0.4800
 6254.828920   7.100e-27   885.06460  0.07220  0.4500
 6254.969130   1.343e-25   446.51070  0.09200  0.7100
 6255.054323   2.496e-28  2739.42770  0.03650  0.3600
 6255.222798   3.690e-28  2275.37180  0.04890  0.3900
 6255.732796   3.307e-28  1985.78420  0.06360  0.4800
 6256.151848   6.050e-28  2054.36820  0.03690  0.5500
 6256.216593   1.811e-27  2054.34470  0.03710  0.5600
 6256.331624   4.329e-28  1216.19450  0.07040  0.6100
 6256.746660   7.262e-26   222.05280  0.09500  0.6400
 6256.918864   6.154e-29   551.60930  0.07900  0.6800
 6257.046022   1.324e-28  2144.04590  0.04770  0.3900
 6257.235482   1.187e-29  4045.32060  0.02270  0.3600
 6257.430372   2.087e-29   299.45050  0.08620  0.6700
 6257.503190   1.230e-26   743.09740  0.07890  0.4900
 6257.654070   2.494e-29  2116.56470  0.04670  0.3900
 6257.790552   1.260e-29  1687.38290  0.05600  0.4800
 6257.794162   1.019e-28   414.16810  0.08200  0.7500
 6258.009154   1.172e-29  3650.50830  0.05690  0.4800
 6258.069696   3.132e-29  2595.81270  0.07910  0.5700
 6258.332719   4.733e-29   379.29150  0.10100  1.0100
 6258.493328   4.492e-29  2142.59670  0.04640  0.3900
 6258.545360   2.679e-26   373.66590  0.09060  0.6900
 6258.642820   2.360e-26   383.84250  0.08400  0.6900
 6258.653083   5.862e-28   445.34620  0.06000  0.6100
 6259.226648   3.627e-28  1282.91880  0.07890  0.6600
 6259.465775   1.020e-28   324.66100  0.08000  0.3600
 6259.547690   9.514e-29  2337.66650  0.05350  0.5700
 6259.554846   3.631e-29  1288.26750  0.07600  0.5100
 6259.692481   1.406e-29  3685.41800  0.02310  0.3600
 6259.703562   4.218e-29  3685.40650  0.02400  0.3600
 6259.756190   5.729e-26   744.16270  0.05090  0.5700
 6259.960270   1.013e-25   275.49710  0.09300  0.5300
 6260.063720   5.057e-29   314.45940  0.08820  0.7100
 6260.237207   1.338e-28  3211.21120  0.02340  0.3800
 6260.291281   1.629e-29  3624.17920  0.03320  0.3600
 6260.395189   4.462e-29  3211.05470  0.02340  0.3800
 6260.823100   3.453e-25   173.36580  0.10000  0.6600
 6261.614740   8.875e-26   885.60020  0.07500  0.7600
 6261.743483   2.797e-29  2398.38160  0.08190  0.7300
 6262.008068   1.218e-29  2595.81270  0.08870  0.8100
 6262.252175   2.151e-28   141.56800  0.09430  0.8900
 6262.393943   7.082e-29  1875.46130  0.05220  0.5100
 6262.824035   7.876e-29  2321.90500  0.03980  0.3900
 6262.916364   2.626e-29  2321.81180  0.03720  0.3900
 6262.930613   8.069e-29  3441.03880  0.06250  0.4800
 6263.000000   4.438e-26   709.60820  0.07700  0.6800
 6263.049863   2.939e-29  2813.52730  0.03430  0.3900
 6263.073009   2.982e-29  3831.17600  0.01780  0.2400
 6263.109620   1.081e-25   326.62550  0.07500  0.3600
 6263.213952   1.311e-29  2818.39770  0.08230  0.6500
 6263.243457   7.028e-29  2144.04590  0.04820  0.4800
 6263.313030   1.961e-26   769.11690  0.06000  0.4500
 6263.370484   1.398e-29   445.74190  0.06950  0.6200
 6263.797660   1.936e-26   768.93000  0.05790  0.4500
 6263.871460   1.243e-26   303.99480  0.09550  0.6900
 6263.891702   1.936e-28   444.84620  0.07100  0.4800
 6264.019786   4.129e-29  3072.72580  0.07130  0.6900
 6264.165546   1.516e-29  3512.40380  0.01360  0.2400
 6264.415406   2.467e-29  3109.91110  0.02890  0.6100
 6264.484618   3.136e-29  3101.43970  0.05550  0.3600
 6264.493235   3.478e-29  3629.09420  0.03690  0.3600
 6264.606500   8.956e-26    95.17590  0.10500  0.7500
 6264.654838   6.920e-28  1411.64180  0.07730  0.5700
 6264.683160   1.509e-29   542.02000  0.08040  0.6200
 6264.895890   2.122e-25   399.45750  0.10100  0.8200
 6265.386644   1.127e-28  2981.35840  0.01350  0.4100
 6265.498390   3.374e-28  2981.35740  0.01140  0.4100
 6265.715874   9.890e-29    79.22730  0.09600  0.6900
 6265.786077   1.125e-28  2841.43040  0.05720  0.5600
 6266.243273   2.172e-28  2124.95000  0.04670  0.3900
 6266.654326   8.068e-27  1695.06770  0.04820  0.4800
 6266.691933   1.788e-29  2321.81180  0.04090  0.4800
 6267.099198   1.624e-29  1574.44970  0.05780  0.5100
 6267.532694   8.956e-29  2392.59230  0.08740  0.6100
 6268.061677   1.234e-29  3583.37260  0.01940  0.3600
 6268.063531   3.701e-29  3583.37060  0.02090  0.3600
 6268.200777   5.568e-29  2146.26370  0.07680  0.6100
 6268.445874   5.300e-27  1813.22270  0.06360  0.4800
 6268.518674   1.455e-26  1080.38530  0.08040  0.5600
 6268.549349   2.483e-29  1468.61230  0.07540  0.5600
 6268.839234   1.779e-29   916.29330  0.07250  0.5600
 6269.025432   7.558e-29  1960.20610  0.04450  0.2400
 6269.382775   1.382e-29  1211.18540  0.06500  0.5600
 6269.388830   1.844e-26   609.94660  0.08460  0.5300
 6269.704370   6.656e-26   300.36230  0.08800  0.7300
 6269.963428   1.092e-28   446.24490  0.06000  0.6100
 6270.056850   2.461e-26  1282.91880  0.09000  0.6500
 6270.137370   1.630e-28  3224.54610  0.05650  0.5100
 6270.237383   4.964e-28  2612.79910  0.04060  0.3900
 6270.876730   2.818e-29  2630.19240  0.06870  0.5600
 6270.932074   1.966e-29   415.12800  0.08200  0.7500
 6271.033780   4.034e-26  1690.66360  0.05600  0.4800
 6271.068416   1.300e-29  3922.32930  0.02090  0.3600
 6271.094942   1.925e-29  2275.37180  0.04710  0.3900
 6271.096818   3.917e-29  3922.32930  0.02090  0.3600
 6271.103364   2.839e-29  3266.51270  0.03950  0.3600
 6271.144370   3.663e-26   295.67750  0.09010  0.7300
 6271.418954   1.770e-29  3824.99630  0.02520  0.3600
 6271.507420   1.775e-25   552.91140  0.07900  0.6800
 6272.105114   3.562e-27  1525.13500  0.04130  0.3900
 6272.260829   5.954e-28  1131.77550  0.07620  0.5600
 6272.381970   3.155e-25   325.34790  0.08000  0.3600
 6272.690370   2.759e-26   508.81200  0.08810  0.6200
 6272.919178   4.742e-29  2813.52730  0.03430  0.3900
 6273.015603   3.230e-28  2550.88160  0.02620  0.3600
 6273.153600   3.724e-26   295.48730  0.09060  0.7300
 6273.225819   8.312e-29  2205.65190  0.06970  0.3900
 6273.277694   2.240e-29  3535.86990  0.07570  0.4800
 6273.418336   1.741e-29  2572.13940  0.07040  0.6200
 6274.479699   5.927e-28   223.82850  0.08800  0.5600
 6274.528180   1.109e-26   735.73520  0.07820  0.4900
 6274.553306   4.201e-29   141.90910  0.09430  0.7100
 6275.263127   1.377e-29  3464.88620  0.02900  0.3600
 6275.340623   1.180e-28   701.69420  0.08600  0.6100
 6275.387247   3.601e-29   445.71920  0.07100  0.4800
 6275.567509   1.565e-29  4017.90620  0.03310  0.4100
 6275.802910   3.873e-26   446.69660  0.07600  0.5200
 6275.966030   1.765e-28   298.62010  0.08700  0.6800
 6276.025075   3.016e-29  2439.95430  0.08080  0.6100
 6276.198893   2.687e-28  2880.83250  0.05020  0.3600
 6276.238331   1.471e-29  3127.86110  0.03410  0.2400
 6276.483276   1.634e-28   583.98640  0.05500  0.5700
 6276.800252   3.515e-29  3647.45800  0.01600  0.4100
 6276.974662   6.391e-29  2211.19040  0.08720  0.7000
 6277.024399   1.262e-29  2437.50120  0.04420  0.2400
 6277.189642   2.406e-29  1047.32850  0.08050  0.5700
 6277.409050   3.820e-29  2841.43040  0.06690  0.6600
 6277.415870   1.170e-29  3647.45950  0.01340  0.4100
 6277.898010   4.014e-26   542.90580  0.10400  0.6200
 6277.910310   1.911e-29  1574.67770  0.03650  0.5700
 6279.119533   1.438e-27  1216.19450  0.04360  0.6100
 6279.288660   3.086e-26   634.79100  0.06760  0.4900
 6279.551380   2.642e-25    79.49640  0.09600  0.6900
 6279.659387   4.895e-28   583.77780  0.05400  0.5700
 6279.833255   5.319e-27   842.35650  0.08040  0.5700
 6280.087196   4.426e-27   661.54890  0.08320  0.7500
 6280.098652   4.280e-28  3084.83470  0.03550  0.3600
 6280.229816   4.822e-27  1810.58760  0.03620  0.6500
 6280.232220   3.062e-26   634.42820  0.06640  0.4900
 6280.238582   1.603e-27  1810.58300  0.03680  0.7300
 6280.287810   2.469e-26   490.42740  0.08680  0.5900
 6280.482507   2.349e-28  2629.33300  0.07330  0.2400
 6280.704095   2.077e-28  1581.33570  0.05830  0.5100
 6280.724881   3.968e-29  2433.79910  0.04190  0.2400
 6280.996612   1.853e-29  3833.14380  0.04820  0.4800
 6281.327800   1.741e-27  1122.70830  0.05920  0.5600
 6281.444064   4.424e-28  2254.28320  0.03600  0.5100
 6281.836520   2.243e-26   382.51690  0.10100  1.0100
 6282.039266   2.248e-27  2042.30980  0.00780  0.3600
 6282.043473   1.021e-29  3766.37890  0.00900  0.3900
 6282.044090   3.063e-29  3766.37890  0.01200  0.3900
 6282.251152   1.520e-29  3770.71070  0.05390  0.5100
 6282.338840   1.364e-26  2124.95000  0.04670  0.3900
 6282.644500   3.389e-25   447.25230  0.06000  0.6100
 6282.780633   5.402e-29  3685.40650  0.02480  0.3600
 6282.865226   4.861e-29  1198.20000  0.06910  0.5600
 6282.907496   4.604e-29   414.16810  0.07900  0.5600
 6282.911721   1.450e-27  1718.71850  0.07370  0.5100
 6283.377019   1.768e-29  3685.41800  0.02390  0.3600
 6283.627236   4.003e-29  3127.86110  0.03160  0.2400
 6283.698133   1.251e-29  3127.80150  0.03430  0.2400
 6284.229634   7.786e-27  1293.63370  0.07600  0.5100
 6284.260745   9.014e-27  1581.33570  0.05780  0.5100
 6284.976944   1.080e-29  2613.10400  0.03470  0.2400
 6285.263610   8.076e-29  2105.86670  0.05750  0.3900
 6285.281933   3.248e-29  2612.79910  0.03420  0.2400
 6285.414003   2.840e-29  2321.90500  0.04280  0.4800
 6285.453019   3.635e-28  2522.26440  0.03640  0.4800
 6285.627108   8.429e-29  2983.39530  0.06330  0.3600
 6285.674930   5.729e-26   416.20870  0.08200  0.7500
 6285.895694   2.402e-29  3144.57890  0.04360  0.3900
 6286.064679   1.340e-28   583.77780  0.06800  0.4600
 6286.259614   1.538e-29  2918.24370  0.03630  0.3600
 6286.435352   7.236e-28  2433.79910  0.04650  0.3900
 6286.619259   1.298e-29  2533.79170  0.06270  0.2400
 6286.656661   2.369e-27  1360.23500  0.05810  0.5100
 6286.723535   1.156e-28   224.30420  0.08800  0.5600
 6286.855911   2.293e-29   702.91660  0.07420  0.6100
 6287.120221   7.679e-27  1216.23110  0.06500  0.5600
 6287.484123   1.479e-28  2309.73000  0.06690  0.5700
 6287.515469   3.507e-28  2053.96850  0.08860  0.7400
 6287.602188   9.656e-29  3464.88620  0.02680  0.3600
 6287.833454   9.261e-28  2586.52880  0.03770  0.2400
 6287.860039   3.047e-29   585.19200  0.06070  0.5700
 6288.042442   4.211e-29  3564.70510  0.05820  0.5100
 6288.078770   1.275e-26   233.05120  0.09300  0.7700
 6288.167553   1.542e-29  2512.37520  0.04310  0.5600
 6288.281980   1.105e-25   446.69660  0.07100  0.4800
 6288.309286   4.724e-28  2818.39770  0.06710  0.5600
 6288.342760   1.101e-25   142.27850  0.09430  0.8900
 6288.445850   3.421e-26   233.05120  0.08900  0.7700
 6288.538050   2.352e-26   315.77950  0.08820  0.7100
 6288.757630   4.680e-26   233.02370  0.09090  0.7700
 6288.778705   5.210e-29  1985.78420  0.06150  0.4800
 6289.179765   3.409e-29   299.43890  0.08700  0.6800
 6290.013272   1.510e-28   325.21570  0.08100  0.5700
 6290.045940   1.832e-26  1477.29720  0.07540  0.5600
 6290.353400   3.203e-28    42.02340  0.09600  0.6700
 6290.416558   2.256e-28  3264.33620  0.03400  0.3600
 6290.784390   3.131e-26   384.87560  0.09030  0.6400
 6291.143150   9.125e-29   584.94090  0.05400  0.5700
 6291.200121   3.054e-28  1810.58760  0.03740  0.5600
 6291.300760   1.363e-28  2462.87520  0.08210  0.8600
 6291.531730   2.170e-26   221.83610  0.09500  0.7300
 6292.061644   9.835e-27   920.20980  0.07250  0.5600
 6292.076528   1.054e-29  3922.32930  0.02010  0.3600
 6292.307209   3.179e-29  3831.17600  0.01780  0.2400
 6292.326991   1.058e-29  3831.17600  0.01780  0.2400
 6292.566014   1.869e-29  2690.59380  0.03450  0.5100
 6292.839184   2.887e-29  3465.06860  0.02680  0.3600
 6293.016060   1.408e-29  1126.43900  0.07660  0.5700
 6293.042822   3.446e-28   740.99860  0.03600  0.5600
 6293.114333   1.069e-28  3383.26510  0.06200  0.5100
 6293.143800   5.527e-27   683.32400  0.07820  0.5900
 6293.443603   1.849e-29   500.59620  0.08590  0.7900
 6293.863506   1.814e-27  1695.06770  0.04680  0.3900
 6294.356452   1.063e-28  2630.19240  0.07020  0.5900
 6294.704160   4.599e-26   513.20720  0.07340  0.5300
 6294.757035   1.714e-29  2275.37180  0.03870  0.3900
 6295.002004   1.149e-28   740.91230  0.03840  0.5600
 6295.042123   1.292e-28  3439.30540  0.02370  0.3800
 6295.255430   1.553e-26   598.56310  0.08340  0.5300
 6295.395530   5.446e-27   512.51580  0.07360  0.5300
 6295.633163   2.551e-28  1477.29720  0.06100  0.5600
 6295.809250   4.922e-27   513.20720  0.07410  0.5300
 6295.903220   5.850e-27   573.89080  0.08010  0.6400
 6296.383868   1.100e-28    36.74870  0.10100  0.6900
 6296.460097   7.287e-28  1616.45240  0.07710  0.4800
 6296.471275   1.641e-28  3080.17770  0.02830  0.3800
 6296.500620   4.559e-26   512.51580  0.07430  0.5300
 6296.773358   1.725e-28  1922.90040  0.08830  0.8700
 6296.797520   4.720e-27   473.91770  0.08560  0.5900
 6297.107200   4.332e-29  3437.20610  0.02150  0.3800
 6297.193282   2.586e-29   584.94090  0.06800  0.4600
 6297.474577   1.134e-29  2471.25460  0.04450  0.5100
 6297.648530   8.189e-27   480.24270  0.08080  0.6900
 6298.093400   7.383e-27   573.97060  0.08520  0.6400
 6298.339731   1.762e-28  1477.29720  0.07270  0.3400
 6298.442252   1.158e-28  2904.67020  0.08090  0.5600
 6298.475390   8.189e-27   480.25890  0.08160  0.6900
 6298.605500   5.688e-27   683.61010  0.08560  0.5900
 6298.676565   9.872e-29  1920.76570  0.08820  0.6300
 6298.815069   5.131e-29  2041.78050  0.07980  0.6200
 6298.829794   2.686e-29  2399.16530  0.08780  0.6200
 6298.934440   2.950e-29  3512.40380  0.01620  0.3900
 6298.936662   8.851e-29  3512.40380  0.01620  0.3900
 6299.126080   6.374e-27   402.32920  0.08050  0.7300
 6299.341200   6.656e-27   402.33100  0.08030  0.7300
 6299.400892   1.556e-29  3565.00420  0.07220  0.5100
 6299.430693   2.455e-27  1327.11650  0.04060  0.3900
 6299.704810   5.971e-26   704.21400  0.08600  0.6100
 6300.263900   6.092e-27   809.39330  0.08280  0.5300
 6300.460530   3.175e-25   224.83840  0.08800  0.5600
 6300.472890   5.930e-27   490.42740  0.08140  0.5900
 6300.580960   9.198e-26   586.47920  0.05500  0.5700
 6300.634941   4.898e-27  2105.86670  0.05750  0.3900
 6301.477520   3.816e-26   293.63650  0.09500  0.6900
 6301.492803   1.191e-27  2205.65190  0.07310  0.3900
 6301.690728   3.630e-29  1378.98620  0.02890  0.6100
 6301.692590   1.210e-29  1378.98610  0.02540  0.6100
 6301.733491   1.435e-28  3583.37060  0.02160  0.2400
 6301.738956   4.788e-29  3583.37260  0.02010  0.2400
 6301.949880   3.619e-26  1201.92100  0.06910  0.5600
 6302.206578   2.938e-29   325.89650  0.08000  0.6700
 6302.637215   5.931e-29  1875.46130  0.05060  0.5100
 6302.756269   6.395e-29    42.18690  0.09600  0.6700
 6302.833559   1.569e-27  1899.00740  0.07410  0.3900
 6302.886136   2.392e-28  1440.28820  0.04940  0.5100
 6303.103604   5.143e-28  1819.33510  0.08740  0.7100
 6303.949444   1.645e-28  2254.28390  0.03560  0.5100
 6304.017351   9.720e-26   300.36230  0.08700  0.6800
 6304.026300   3.954e-25   586.24350  0.05400  0.5700
 6304.070219   3.625e-27  1590.69060  0.03220  0.5700
 6304.073584   1.087e-26  1590.69010  0.03650  0.5700
 6304.108878   1.035e-28  2142.59670  0.05470  0.4800
 6304.433261   4.693e-28  1474.98030  0.07720  0.5600
 6304.436000   6.429e-29   742.49070  0.03600  0.5600
 6304.713870   5.567e-27   609.94660  0.07730  0.5300
 6304.976672   1.733e-28  2180.64280  0.07210  0.6100
 6305.125659   1.052e-29  2927.93990  0.03340  0.3600
 6305.637820   1.828e-29   879.49480  0.07050  0.4900
 6305.838418   4.247e-29  3629.09420  0.03470  0.3600
 6306.007102   7.467e-28  1340.88450  0.06360  0.5100
 6306.290770   1.759e-26   416.20870  0.07900  0.5600
 6306.462000   2.144e-29   742.39860  0.03840  0.5600
 6306.746521   3.102e-29  1109.80220  0.06700  0.5100
 6306.803596   3.412e-29  3526.62790  0.05910  0.5600
 6307.098159   1.481e-28  3360.59890  0.05830  0.3600
 6307.439622   5.027e-29  2054.34470  0.06890  0.5100
 6307.542832   2.058e-27   888.59860  0.04550  0.6200
 6307.768670   3.054e-28  2205.65190  0.06720  0.2400
 6308.175950   2.281e-29  2265.43850  0.05290  0.3900
 6308.214790   1.097e-29  3526.62670  0.05440  0.5600
 6308.430256   2.852e-27  1525.13500  0.06630  0.4800
 6308.519200   1.573e-26  1050.15760  0.08050  0.5700
 6308.548090   3.019e-28   445.34620  0.07200  0.6200
 6308.561900   6.928e-29   916.29330  0.02500  0.5100
 6308.616502   1.864e-28  1813.78760  0.08700  0.8200
 6308.642890   6.213e-27   701.62040  0.08070  0.5300
 6308.662787   5.250e-29  2813.52730  0.03400  0.3900
 6308.664682   1.540e-28  2813.51150  0.03370  0.3900
 6308.724738   6.740e-29  1810.58760  0.04350  0.5100
 6308.764992   2.192e-29    36.93240  0.09930  0.6900
 6309.031589   3.232e-29    94.78860  0.09670  0.7100
 6309.322470   4.720e-27   403.54900  0.08740  0.6400
 6309.423600   6.495e-26   404.44560  0.08290  0.5900
 6309.454233   1.827e-29  1211.18540  0.06690  0.6600
 6309.620040   7.100e-26   586.24350  0.06800  0.4600
 6309.689566   7.364e-29  1433.02840  0.05900  0.5100
 6309.799126   2.081e-28   916.25800  0.02800  0.5100
 6309.827109   6.812e-29  3347.78030  0.02530  0.2400
 6310.034937   2.030e-28  3347.78200  0.02520  0.2400
 6310.188951   3.392e-29  2490.35400  0.05110  0.5600
 6310.337547   2.650e-29  3675.11010  0.00650  0.4100
 6310.457318   3.076e-29  1835.48630  0.05160  0.4800
 6310.707760   7.988e-27   403.16150  0.08040  0.5900
 6311.189879   1.461e-29  1247.20590  0.07530  0.5700
 6311.426045   6.319e-28  1908.01640  0.08380  0.6900
 6311.449976   1.472e-29  1534.36800  0.07150  0.5100
 6311.454020   7.342e-27   404.44560  0.08010  0.5900
 6311.727802   1.413e-29   482.64340  0.08070  0.7500
 6311.883030   1.025e-28  3266.51270  0.03950  0.3600
 6311.886725   1.231e-29  1334.47900  0.07250  0.5600
 6312.363208   7.102e-29  3319.44580  0.01160  0.4100
 6312.399648   2.365e-29  3319.44700  0.01350  0.4100
 6312.738180   6.334e-26   403.16150  0.08140  0.5900
 6312.822730   4.397e-26   217.04190  0.09350  0.7300
 6313.152800   7.665e-27   362.50720  0.08920  0.6400
 6313.369186   2.900e-29  2254.28320  0.03640  0.4800
 6313.584188   1.341e-28  3127.80150  0.03460  0.2400
 6313.619414   4.396e-28  2533.79170  0.06070  0.3600
 6314.385864   1.548e-28  2009.80510  0.03280  0.5600
 6314.432245   5.386e-29  2439.95430  0.07050  0.5300
 6314.616745   7.691e-29  2246.88380  0.04610  0.3600
 6314.712054   6.025e-29  3211.21120  0.02620  0.3800
 6314.783469   1.151e-28   839.54940  0.08210  0.8600
 6314.866781   6.860e-29  3101.43970  0.05550  0.3600
 6314.869466   2.009e-29  3211.05470  0.02080  0.3800
 6314.986954   3.872e-29  1443.04090  0.04940  0.5100
 6315.140790   3.546e-26   157.06470  0.09310  0.7700
 6315.279005   1.724e-29  2813.51150  0.05450  0.3900
 6315.516500   6.132e-27   598.56310  0.08070  0.5300
 6315.859870   8.391e-26   326.62550  0.08100  0.5700
 6315.946750   6.279e-28  2748.09860  0.03970  0.2400
 6315.992250   3.724e-28  3127.86110  0.04310  0.2400
 6316.191546   3.362e-29  3320.92970  0.06100  0.5600
 6316.443243   1.651e-28  2024.15230  0.07970  0.6700
 6316.454663   1.524e-28  2983.32280  0.07250  0.5600
 6316.660712   5.396e-29  2337.46310  0.06420  0.5700
 6316.676020   1.654e-25    42.37170  0.09600  0.6700
 6316.835690   1.412e-26   503.96810  0.08590  0.7900
 6316.845013   7.651e-27  1131.77550  0.07660  0.5700
 6316.913810   1.013e-26   576.90470  0.08290  0.5900
 6316.914360   1.096e-29  2764.69730  0.07570  0.5600
 6316.982600   2.707e-26   473.91770  0.08640  0.5900
 6317.216840   1.904e-25   744.16270  0.03600  0.5600
 6317.685813   1.042e-28  3472.88010  0.05620  0.3600
 6317.780379   1.826e-29  2522.26440  0.03640  0.4800
 6318.078781   6.653e-29  1810.58760  0.03590  0.5600
 6318.337957   4.937e-28  2927.93990  0.04100  0.2400
 6318.589060   9.924e-27   490.42740  0.08190  0.5900
 6318.674281   3.022e-28  2927.07420  0.03800  0.2400
 6318.856440   2.031e-29  2705.13920  0.03400  0.5100
 6319.188288   3.693e-28  2042.30980  0.04890  0.3600
 6319.357430   6.172e-26   744.06370  0.03840  0.5600
 6319.391688   1.344e-28   550.45080  0.07100  0.6100
 6319.399230   4.018e-27   801.64410  0.08080  0.4900
 6319.448435   1.377e-29  2433.79910  0.04650  0.3900
 6319.999122   1.292e-29   918.18840  0.03870  0.5100
 6320.366185   1.048e-27  1557.84360  0.01920  0.2400
 6320.532989   5.046e-28  2321.81180  0.04090  0.4800
 6320.627954   2.537e-29   740.91230  0.05800  0.4300
 6320.661703   5.859e-29   446.24490  0.07200  0.6200
 6320.671660   1.036e-28  3321.01320  0.07570  0.5600
 6321.273950   3.881e-29   918.10190  0.02800  0.5100
 6321.556020   4.680e-27   735.73520  0.07740  0.4900
 6321.690863   1.384e-29  1435.36720  0.05900  0.5100
 6321.951628   8.103e-28  1255.16660  0.07790  0.5700
 6322.509290   5.648e-27   634.42820  0.06580  0.4900
 6322.645310   5.365e-26    37.13710  0.10100  0.6900
 6322.774676   5.701e-29  2880.83250  0.05540  0.3600
 6322.887719   1.783e-28  1001.70570  0.06200  0.5900
 6323.005760   5.930e-27   634.79100  0.06570  0.4900
 6323.222243   1.091e-28  1109.80220  0.02200  0.4800
 6323.289820   7.826e-26   308.61570  0.08810  0.6400
 6323.385700   3.090e-26   467.51460  0.08510  0.6400
 6323.783903   2.708e-27   920.16800  0.04160  0.5100
 6323.939692   3.104e-29  3512.40380  0.01620  0.3900
 6323.941468   9.305e-29  3512.40380  0.01620  0.3900
 6324.023399   3.636e-29  1109.78660  0.02270  0.4800
 6324.333575   3.153e-28  2161.28590  0.07460  0.6000
 6324.520958   9.902e-28  2630.19240  0.06590  0.5700
 6324.668756   2.544e-28  1843.02880  0.05160  0.4800
 6324.792929   2.216e-28  2872.57890  0.02640  0.3600
 6324.930838   2.452e-28  2205.65190  0.06970  0.3900
 6325.047298   4.876e-28  2009.80470  0.03120  0.5600
 6325.098677   6.643e-28  2872.27320  0.02620  0.3600
 6325.100120   4.841e-26   155.38900  0.09890  0.7700
 6325.182101   1.522e-28  2271.71190  0.08340  0.6400
 6325.560567   5.477e-29  2282.58960  0.08300  0.7200
 6325.571054   1.789e-29  4006.07100  0.03110  0.3800
 6325.586830   1.091e-28  3162.25830  0.07050  0.5100
 6325.590750   1.101e-26   306.31480  0.08640  0.6400
 6325.781494   2.614e-27  1695.06770  0.07050  0.4800
 6326.163789   3.738e-29  1985.78420  0.05170  0.4800
 6326.175862   8.908e-29  3139.47560  0.06040  0.5600
 6326.802770   7.181e-26  1446.12790  0.04940  0.5100
 6326.811500   3.319e-28  2392.59230  0.08720  0.6400
 6326.837370   1.017e-26   308.61570  0.08560  0.6400
 6326.855622   3.535e-29  3253.73730  0.07920  0.5100
 6327.067802   1.408e-29  2420.88570  0.04760  0.3900
 6327.240007   1.971e-29  2225.46880  0.04730  0.5600
 6327.284888   2.569e-29  1001.70570  0.07500  0.5700
 6327.616462   9.550e-29  3639.53690  0.02630  0.3800
 6327.790272   6.939e-27  1394.81410  0.02540  0.6100
 6327.790841   2.081e-26  1394.81410  0.02890  0.6100
 6327.817600   7.592e-29  3659.90330  0.06630  0.4800
 6328.201400   1.448e-26   373.66590  0.08650  0.6900
 6328.225060   7.786e-27   743.09740  0.07240  0.4900
 6328.499844   1.245e-28    78.98860  0.09650  0.7100
 6328.512780   6.710e-27  1340.88450  0.07250  0.5600
